# Format: McStas Reflectivity file
# Swiss Neutronics Ni/Ti supermirror coating on glass
# Reference: http://www.swissneutronics.ch/
# m=3 super mirror
# Measurement at lambda=4.73 Angs
# [ k(Angs-1) Reflectivity(% in 0-1) ]
# wavevector multiply
0.000911178 1.0015503876
0.00212608 1.0015503876
0.00364471 1.00465116279
0.00516334 1.0015503876
0.00637824 0.995348837209
0.00728941 1.0015503876
0.00850431 0.995348837209
0.0100229 1.0015503876
0.0112378 1.0015503876
0.012149 0.986046511628
0.0136676 0.992248062016
0.0148825 0.986046511628
0.0160974 0.986046511628
0.0173123 0.982945736434
0.0185271 0.973643410853
0.019742 0.97984496124
0.0212606 0.964341085271
0.0221717 0.970542635659
0.0233866 0.964341085271
0.0246014 0.961240310078
0.0258163 0.95503875969
0.0270311 0.967441860465
0.0285497 0.951937984496
0.0297645 0.948837209302
0.0306756 0.951937984496
0.0318905 0.945736434109
0.033409 0.939534883721
0.0349275 0.939534883721
0.0358386 0.936434108527
0.0370534 0.927131782946
0.0382681 0.924031007752
0.0394829 0.917829457364
0.0406977 0.924031007752
0.0422161 0.911627906977
0.0434309 0.924031007752
0.0443419 0.924031007752
0.0458603 0.905426356589
0.0470751 0.914728682171
0.0482898 0.896124031008
0.0498081 0.908527131783
0.0507191 0.902325581395
0.0519338 0.88992248062
0.0528448 0.877519379845
0.0546668 0.871317829457
0.0552741 0.868217054264
0.0567924 0.862015503876
0.058007 0.868217054264
0.0595253 0.855813953488
0.0604362 0.852713178295
0.0619545 0.858914728682
0.0628654 0.862015503876
0.0646872 0.852713178295
0.0655981 0.840310077519
0.0668127 0.778294573643
0.0683308 0.629457364341
0.0692417 0.474418604651
0.0704562 0.319379844961
0.0716706 0.176744186047
0.0731887 0.0899224806202
0.0740995 0.046511627907
0.0753139 0.0217054263566
0.0768319 0.015503875969
0.0780463 0.015503875969
0.0792607 0.0093023255814
0.0804751 0.0093023255814
0.0816894 0.0093023255814
0.0829037 0.0031007751938
0.084118 0.0031007751938
0.0853323 0.0031007751938
0.0865466 0
