# Format: McStas Reflectivity file
# Swiss Neutronics Ni/Ti supermirror coating on glass
# Reference: http://www.swissneutronics.ch/
# m=2 super mirror
# Measurement at lambda=4.73 Angs
# [ k(Angs-1) Reflectivity(% in 0-1) ]
# wavevector multiply
0.000206084 1.00487804878
0.00144259 0.998460704607
0.00226692 0.992014453478
0.00309125 0.99857633243
0.00412167 0.998648599819
0.00494601 1.00195844625
0.00597642 0.989022583559
0.00680075 0.992332429991
0.00783117 0.99240469738
0.00844942 0.998952122855
0.00968591 0.995786811201
0.0105102 0.999096657633
0.0115406 0.999168925023
0.012365 0.989470641373
0.0133954 0.999299006323
0.0144258 0.999371273713
0.0152501 0.996177055104
0.0160744 0.999486901536
0.0168987 0.986536585366
0.0181352 0.996379403794
0.0189595 0.983429087624
0.0199899 0.990005420054
0.0206082 0.977040650407
0.0216385 0.986869015357
0.0226689 0.977185185185
0.0236993 0.977257452575
0.0245236 0.974063233966
0.0253479 0.974121047877
0.0263783 0.967689250226
0.0269965 0.964480578139
0.0280269 0.967804878049
0.0290572 0.964625112918
0.0300876 0.967949412827
0.031324 0.964784101174
0.0319422 0.968079494128
0.0327665 0.964885275519
0.0337968 0.961705510388
0.0346211 0.955259259259
0.0358575 0.965102077687
0.0364757 0.965145438121
0.037506 0.95871364047
0.0381242 0.965261065944
0.0391545 0.952325203252
0.0399787 0.962139114724
0.041009 0.955707317073
0.0420393 0.962283649503
0.0428635 0.955837398374
0.0440999 0.933159891599
0.044718 0.887674796748
0.0457483 0.806446251129
0.0465725 0.70243902439
0.0478088 0.559436314363
0.048427 0.432650406504
0.0494572 0.30264137308
0.0502814 0.211642276423
0.0511056 0.133651309846
0.0523419 0.0914616079494
0.053166 0.0589990966576
0.0539902 0.0395447154472
0.0548144 0.0298464317977
0.0560506 0.0266811201445
0.0566687 0.0234724480578
0.0579049 0.013803071364
0.0587291 0.0106088527552
